{
  "resourceType": "Bundle",
  "id": "fb10b171-202d-41f2-8d93-4184ce611314",
  "identifier": {
    "system": "urn:oid:2.16.840.1.113883.2.9.2.120.4.4",
    "value": "030702.LCNLDE90L47H501Q.20220420112426.DW322E34",
    "assigner": {
      "display": "Regione Lazio"
    }
  },
  "type": "transaction",
  "timestamp": "2024-07-30T17:08:00+02:00",
  "entry": [
    {
      "fullUrl": "https://example/Organization/2.16.840.1.113883.2.9.2.110-130106",
      "resource": {
        "resourceType": "Organization",
        "id": "2.16.840.1.113883.2.9.2.110-130106",
        "identifier": [
          {
            "system": "urn:oid:2.16.840.1.113883.2.9.2.110",
            "value": "130106",
            "assigner": {
              "display": "Ministero della Salute"
            }
          }
        ],
        "name": "ASL Roma1"
      },
      "request": {
        "method": "PUT",
        "url": "Organization?identifier=130106"
      }
    },
    {
      "fullUrl": "https://example/Location/2.16.840.1.113883.2.9.4.1.6-120103.XX.49",
      "resource": {
        "resourceType": "Location",
        "id": "2.16.840.1.113883.2.9.4.1.6-120103.XX.49",
        "identifier": [
          {
            "system": "urn:oid:2.16.840.1.113883.2.9.4.1.6",
            "value": "120103.XX.49",
            "assigner": {
              "display": "Ministero della Salute"
            }
          }
        ],
        "name": "Terapia Intensiva",
        "managingOrganization": {
          "reference": "https://example/Organization/2.16.840.1.113883.2.9.4.1.2-120103.XX"
        }
      },
      "request": {
        "method": "PUT",
        "url": "Location?identifier=120103.XX.49"
      }
    },
    {
      "fullUrl": "https://example/Observation/53b35979-5880-4318-8229-581f5e6409ab",
      "resource": {
        "resourceType": "Observation",
        "id": "53b35979-5880-4318-8229-581f5e6409ab",
        "status": "final",
        "code": {
          "coding": [
            {
              "system": "http://loinc.org",
              "code": "8646-2",
              "display": "Diagnosi di Accettazione Ospedaliera"
            }
          ]
        },
        "subject": {
          "reference": "https://example/Patient/e0bebdce-1f13-4731-8d7a-3e9bfe674be4"
        },
        "encounter": {
          "reference": "https://example/Encounter/74938479-9e71-4ca8-adba-8535d93c8874"
        },
        "valueCodeableConcept": {
          "coding": [
            {
              "system": "http://hl7.org/fhir/sid/icd-9",
              "code": "300.01",
              "display": "Disturbo di panico"
            }
          ]
        }
      },
      "request": {
        "method": "POST",
        "url": "Observation"
      }
    },
    {
      "fullUrl": "https://example/PractitionerRole/609957cc-b9f1-4500-b749-5e867a0bd1c7",
      "resource": {
        "resourceType": "PractitionerRole",
        "id": "609957cc-b9f1-4500-b749-5e867a0bd1c7",
        "practitioner": {
          "reference": "https://example/Practitioner/2.16.840.1.113883.2.9.4.3.2-PROVAX00X00X000Y"
        },
        "organization": {
          "reference": "https://example/Organization/2.16.840.1.113883.2.9.4.1.1-120325"
        }
      },
      "request": {
        "method": "POST",
        "url": "PractitionerRole"
      }
    },
    {
      "fullUrl": "https://example/Encounter/74938479-9e71-4ca8-adba-8535d93c8874",
      "resource": {
        "resourceType": "Encounter",
        "id": "74938479-9e71-4ca8-adba-8535d93c8874",
        "identifier": [
          {
            "system": "urn:oid:2.16.840.1.113883.2.9.2.120103.4.6",
            "value": "2011008159",
            "assigner": {
              "display": "XXX"
            }
          }
        ],
        "status": "finished",
        "class": {
          "system": "http://terminology.hl7.org/CodeSystem/v3-ActCode",
          "code": "AMB",
          "display": "ambulatory"
        },
        "subject": {
          "reference": "https://example/Patient/e0bebdce-1f13-4731-8d7a-3e9bfe674be4"
        },
        "basedOn": [
          {
            "reference": "https://example/ServiceRequest/7a74012c-b329-4609-93cd-20894f0bf2aa"
          }
        ],
        "participant": [
          {
            "type": [
              {
                "coding": [
                  {
                    "system": "http://terminology.hl7.org/CodeSystem/v3-ParticipationType",
                    "code": "REF"
                  }
                ]
              }
            ],
            "individual": {
              "reference": "https://example/PractitionerRole/2a96c8ad-dfee-481d-add4-ebb28842bba6"
            }
          },
          {
            "individual": {
              "reference": "https://example/PractitionerRole/69bd7678-920f-48a6-86f0-3547fa310fba"
            }
          }
        ],
        "period": {
          "start": "2022-03-17T00:00:00+01:00",
          "end": "2022-04-17T10:00:00+01:00"
        },
        "location": [
          {
            "location": {
              "reference": "https://example/Location/2.16.840.1.113883.2.9.4.1.6-120103.XX.49"
            }
          }
        ]
      },
      "request": {
        "method": "POST",
        "url": "Encounter"
      }
    },
    {
      "fullUrl": "https://example/PractitionerRole/2a96c8ad-dfee-481d-add4-ebb28842bba6",
      "resource": {
        "resourceType": "PractitionerRole",
        "id": "2a96c8ad-dfee-481d-add4-ebb28842bba6",
        "practitioner": {
          "reference": "https://example/Practitioner/2.16.840.1.113883.2.9.4.3.2-PROVAX00X00X000Y"
        }
      },
      "request": {
        "method": "POST",
        "url": "PractitionerRole"
      }
    },
    {
      "fullUrl": "https://example/PractitionerRole/90fdc653-e97e-4ca0-bd48-fe41ac11f811",
      "resource": {
        "resourceType": "PractitionerRole",
        "id": "90fdc653-e97e-4ca0-bd48-fe41ac11f811",
        "practitioner": {
          "reference": "https://example/Practitioner/2.16.840.1.113883.2.9.4.3.2-PROVAX00X00X000Y"
        }
      },
      "request": {
        "method": "POST",
        "url": "PractitionerRole"
      }
    },
    {
      "fullUrl": "https://example/Organization/2.16.840.1.113883.2.9.4.1.2-120103.XX",
      "resource": {
        "resourceType": "Organization",
        "id": "2.16.840.1.113883.2.9.4.1.2-120103.XX",
        "identifier": [
          {
            "system": "urn:oid:2.16.840.1.113883.2.9.4.1.2",
            "value": "120103.XX",
            "assigner": {
              "display": "Ministero della Salute"
            }
          }
        ],
        "name": "Ospedale Sant'Eugenio",
        "telecom": [
          {
            "system": "phone",
            "value": "3340000000",
            "use": "mobile"
          }
        ],
        "partOf": {
          "reference": "https://example/Organization/2.16.840.1.113883.2.9.4.1.1-120103"
        }
      },
      "request": {
        "method": "PUT",
        "url": "Organization?identifier=120103.XX"
      }
    },
    {
      "fullUrl": "https://example/DocumentReference/583c6707-eb2f-43e4-bb70-a25e408eb3d6",
      "resource": {
        "resourceType": "DocumentReference",
        "id": "583c6707-eb2f-43e4-bb70-a25e408eb3d6",
        "status": "current",
        "subject": {
          "reference": "https://example/Patient/e0bebdce-1f13-4731-8d7a-3e9bfe674be4"
        },
        "author": [
          {
            "reference": "https://example/Practitioner/2.16.840.1.113883.2.9.4.3.2-PROVAX00X00X000Y"
          }
        ],
        "custodian": {
          "reference": "https://example/Organization/2.16.840.1.113883.2.9.2.110-130106"
        },
        "content": [
          {
            "attachment": {
              "title": "string"
            }
          }
        ],
        "context": {
          "related": [
            {
              "reference": "https://example/Composition/ffe2aa7c-208e-469b-b87d-08922006675e"
            }
          ]
        }
      },
      "request": {
        "method": "POST",
        "url": "DocumentReference"
      }
    },
    {
      "fullUrl": "https://example/Patient/e0bebdce-1f13-4731-8d7a-3e9bfe674be4",
      "resource": {
        "resourceType": "Patient",
        "id": "e0bebdce-1f13-4731-8d7a-3e9bfe674be4",
        "extension": [
          {
            "url": "http://hl7.org/fhir/StructureDefinition/patient-birthPlace",
            "valueAddress": {
              "line": [
                null
              ],
              "_line": [
                {
                  "extension": [
                    {
                      "url": "http://hl7.org/fhir/StructureDefinition/iso21090-ADXP-censusTract",
                      "valueString": "001086"
                    }
                  ]
                }
              ],
              "city": "Cirie"
            }
          }
        ],
        "identifier": [
          {
            "system": "urn:oid:2.16.840.1.113883.2.9.4.3.2",
            "value": "NGNVCN92S19L259C",
            "assigner": {
              "display": "MEF"
            }
          }
        ],
        "name": [
          {
            "family": "Esempio",
            "given": [
              "Test"
            ]
          }
        ],
        "gender": "male",
        "birthDate": "1980-03-29"
      },
      "request": {
        "method": "PUT",
        "url": "Patient?identifier=NGNVCN92S19L259C"
      }
    },
    {
      "fullUrl": "https://example/Organization/2.16.840.1.113883.2.9.4.1.1-120103",
      "resource": {
        "resourceType": "Organization",
        "id": "2.16.840.1.113883.2.9.4.1.1-120103",
        "identifier": [
          {
            "system": "urn:oid:2.16.840.1.113883.2.9.4.1.1",
            "value": "120103",
            "assigner": {
              "display": "Ministero della Salute"
            }
          }
        ]
      },
      "request": {
        "method": "PUT",
        "url": "Organization?identifier=120103"
      }
    },
    {
      "fullUrl": "https://example/PractitionerRole/69bd7678-920f-48a6-86f0-3547fa310fba",
      "resource": {
        "resourceType": "PractitionerRole",
        "id": "69bd7678-920f-48a6-86f0-3547fa310fba",
        "practitioner": {
          "reference": "https://example/Practitioner/2.16.840.1.113883.2.9.4.3.2-PROVAX00X00X000Y"
        },
        "code": [
          {
            "coding": [
              {
                "code": "RESPRSN"
              }
            ]
          }
        ]
      },
      "request": {
        "method": "POST",
        "url": "PractitionerRole"
      }
    },
    {
      "fullUrl": "https://example/Organization/2.16.840.1.113883.2.9.4.1.1-120325",
      "resource": {
        "resourceType": "Organization",
        "id": "2.16.840.1.113883.2.9.4.1.1-120325",
        "identifier": [
          {
            "system": "urn:oid:2.16.840.1.113883.2.9.4.1.1",
            "value": "120325",
            "assigner": {
              "display": "Ministero della Salute"
            }
          }
        ],
        "name": "ATS DELLA CITTA' METROPOLITANA DI MILANO",
        "telecom": [
          {
            "system": "email",
            "value": "prova.provax@example.com",
            "use": "work"
          }
        ],
        "address": [
          {
            "line": [
              "via Goffredo Mameli 2",
              null
            ],
            "_line": [
              null,
              {
                "extension": [
                  {
                    "url": "http://hl7.org/fhir/StructureDefinition/iso21090-ADXP-censusTract",
                    "valueString": "15146"
                  }
                ]
              }
            ],
            "city": "Milano",
            "district": "MI",
            "state": "30",
            "postalCode": "20129",
            "country": "100"
          }
        ]
      },
      "request": {
        "method": "PUT",
        "url": "Organization?identifier=120325"
      }
    },
    {
      "fullUrl": "https://example/ServiceRequest/7a74012c-b329-4609-93cd-20894f0bf2aa",
      "resource": {
        "resourceType": "ServiceRequest",
        "id": "7a74012c-b329-4609-93cd-20894f0bf2aa",
        "identifier": [
          {
            "system": "urn:oid:2.16.840.1.113883.2.9.4.3.9",
            "value": "[NRE]",
            "assigner": {
              "display": "MEF"
            }
          }
        ],
        "status": "active",
        "intent": "order",
        "priority": "routine",
        "subject": {
          "reference": "https://example/Patient/e0bebdce-1f13-4731-8d7a-3e9bfe674be4"
        },
        "encounter": {
          "reference": "https://example/Encounter/74938479-9e71-4ca8-adba-8535d93c8874"
        }
      },
      "request": {
        "method": "POST",
        "url": "ServiceRequest"
      }
    },
    {
      "fullUrl": "https://example/Observation/f96ec6e8-11a4-4e83-9557-689d6c7be949",
      "resource": {
        "resourceType": "Observation",
        "id": "f96ec6e8-11a4-4e83-9557-689d6c7be949",
        "status": "final",
        "code": {
          "coding": [
            {
              "system": "http://loinc.org",
              "code": "8648-8",
              "display": "Decorso_Ospedaliero"
            }
          ]
        },
        "subject": {
          "reference": "https://example/Patient/e0bebdce-1f13-4731-8d7a-3e9bfe674be4"
        },
        "encounter": {
          "reference": "https://example/Encounter/74938479-9e71-4ca8-adba-8535d93c8874"
        },
        "note": [
          {
            "text": "<div xmlns=\"http://www.w3.org/1999/xhtml\"><p>\n\t\t\t\t\t\t\tIl paziente giungeva alla nostra attenzione sintomatico per \n\t\t\t\t\t\t\tscompenso cardiaco acuto. Durante il ricovero è stato ottenuto un \n\t\t\t\t\t\t\tripristino dello stato di compenso emodinamico mediante trattamento \n\t\t\t\t\t\t\tfarmacologico intensivo. \n\t\t\t\t\t\t</p></div>"
          }
        ]
      },
      "request": {
        "method": "POST",
        "url": "Observation"
      }
    },
    {
      "fullUrl": "https://example/Observation/224da605-9739-471d-83b6-ff6ad5acbcbe",
      "resource": {
        "resourceType": "Observation",
        "id": "224da605-9739-471d-83b6-ff6ad5acbcbe",
        "status": "final",
        "code": {
          "coding": [
            {
              "system": "http://loinc.org",
              "code": "8651-2",
              "display": "Diagnosi di Dimissione Ospedaliera"
            }
          ]
        },
        "subject": {
          "reference": "https://example/Patient/e0bebdce-1f13-4731-8d7a-3e9bfe674be4"
        },
        "encounter": {
          "reference": "https://example/Encounter/74938479-9e71-4ca8-adba-8535d93c8874"
        },
        "valueCodeableConcept": {
          "coding": [
            {
              "system": "http://hl7.org/fhir/sid/icd-9",
              "code": "428.0",
              "display": "Insufficienza cardiaca"
            },
            {
              "system": "http://loinc.org",
              "code": "67502-5",
              "display": "Cardiac arrest"
            }
          ]
        }
      },
      "request": {
        "method": "POST",
        "url": "Observation"
      }
    },
    {
      "fullUrl": "https://example/Practitioner/2.16.840.1.113883.2.9.4.3.2-PROVAX00X00X000Y",
      "resource": {
        "resourceType": "Practitioner",
        "id": "2.16.840.1.113883.2.9.4.3.2-PROVAX00X00X000Y",
        "identifier": [
          {
            "system": "urn:oid:2.16.840.1.113883.2.9.4.3.2",
            "value": "PROVAX00X00X000Y",
            "assigner": {
              "display": "MEF"
            }
          }
        ],
        "name": [
          {
            "family": "Esempio",
            "given": [
              "Test"
            ],
            "prefix": [
              "Dott."
            ]
          }
        ]
      },
      "request": {
        "method": "PUT",
        "url": "Practitioner?identifier=PROVAX00X00X000Y"
      }
    },
    {
      "fullUrl": "https://example/PractitionerRole/0633adbc-b742-4471-9538-93318017d289",
      "resource": {
        "resourceType": "PractitionerRole",
        "id": "0633adbc-b742-4471-9538-93318017d289",
        "practitioner": {
          "reference": "https://example/Practitioner/2.16.840.1.113883.2.9.4.3.2-PROVAX00X00X000Y"
        }
      },
      "request": {
        "method": "POST",
        "url": "PractitionerRole"
      }
    },
    {
      "fullUrl": "https://example/Composition/ffe2aa7c-208e-469b-b87d-08922006675e",
      "resource": {
        "resourceType": "Composition",
        "id": "ffe2aa7c-208e-469b-b87d-08922006675e",
        "language": "it-IT",
        "identifier": {
          "system": "urn:oid:2.16.840.1.113883.2.9.2.99.4.4",
          "value": "030702.LCNLDE90L47H501Q.20220420112426.DW322E34",
          "assigner": {
            "display": "Regione Lazio"
          }
        },
        "status": "final",
        "type": {
          "coding": [
            {
              "system": "http://loinc.org",
              "code": "34105-7",
              "display": "Lettera di dimissione ospedaliera"
            }
          ]
        },
        "subject": {
          "reference": "https://example/Patient/e0bebdce-1f13-4731-8d7a-3e9bfe674be4"
        },
        "encounter": {
          "reference": "https://example/Encounter/74938479-9e71-4ca8-adba-8535d93c8874"
        },
        "date": "2022-04-17T10:00:00+01:00",
        "author": [
          {
            "reference": "https://example/PractitionerRole/609957cc-b9f1-4500-b749-5e867a0bd1c7"
          },
          {
            "reference": "https://example/PractitionerRole/90fdc653-e97e-4ca0-bd48-fe41ac11f811"
          }
        ],
        "title": "Lettera di dimissione ospedaliera",
        "confidentiality": "N",
        "attester": [
          {
            "mode": "professional",
            "party": {
              "reference": "https://example/Practitioner/2.16.840.1.113883.2.9.4.3.2-PROVAX00X00X000Y"
            }
          },
          {
            "mode": "legal",
            "time": "2022-04-17T09:35:00+01:00",
            "party": {
              "reference": "https://example/PractitionerRole/0633adbc-b742-4471-9538-93318017d289"
            }
          }
        ],
        "custodian": {
          "reference": "https://example/Organization/2.16.840.1.113883.2.9.2.110-130106"
        },
        "section": [
          {
            "title": "Motivo del ricovero",
            "code": {
              "coding": [
                {
                  "system": "http://loinc.org",
                  "code": "46241-6",
                  "display": "Diagnosi di accettazione"
                }
              ]
            },
            "text": {
              "status": "generated",
              "div": "<div xmlns=\"http://www.w3.org/1999/xhtml\"><ul><li><span id=\"DIAG-1\">Disturbo di panico</span></li><li><span id=\"DIAG-2\">Ipertiroidismo</span></li></ul></div>"
            },
            "entry": [
              {
                "reference": "https://example/Observation/53b35979-5880-4318-8229-581f5e6409ab"
              }
            ]
          },
          {
            "title": "Decorso Ospedaliero",
            "code": {
              "coding": [
                {
                  "system": "http://loinc.org",
                  "code": "8648-8",
                  "display": "Decorso_Ospedaliero"
                }
              ]
            },
            "text": {
              "status": "generated",
              "div": "<div xmlns=\"http://www.w3.org/1999/xhtml\"><p>\n\t\t\t\t\t\t\tIl paziente giungeva alla nostra attenzione sintomatico per \n\t\t\t\t\t\t\tscompenso cardiaco acuto. Durante il ricovero è stato ottenuto un \n\t\t\t\t\t\t\tripristino dello stato di compenso emodinamico mediante trattamento \n\t\t\t\t\t\t\tfarmacologico intensivo. \n\t\t\t\t\t\t</p></div>"
            },
            "entry": [
              {
                "reference": "https://example/Observation/f96ec6e8-11a4-4e83-9557-689d6c7be949"
              }
            ]
          },
          {
            "title": "Condizioni del paziente e diagnosi alla dimissione",
            "code": {
              "coding": [
                {
                  "system": "http://loinc.org",
                  "code": "11535-2",
                  "display": "Diagnosi di Dimissione"
                }
              ]
            },
            "text": {
              "status": "generated",
              "div": "<div xmlns=\"http://www.w3.org/1999/xhtml\">\n\t\t\t\t\t\tPaziente in cattivo compenso emodinamico per insufficenza della Valvola \n\t\t\t\t\t\tAortica di grado severo. Non in grado di deambulare correttamente, \n\t\t\t\t\t\tnecessita di sedia a rotelle in ore serali. Si segnala inizio di sindrome \n\t\t\t\t\t\tparanoica e COPD.\n\t\t\t\t\t</div>"
            },
            "entry": [
              {
                "reference": "https://example/Observation/224da605-9739-471d-83b6-ff6ad5acbcbe"
              }
            ]
          }
        ]
      },
      "request": {
        "method": "POST",
        "url": "Composition"
      }
    }
  ]
}